ID,RunNumber,Condition,Trial Number,Object,ShouldClick,Clicked,Response Time,Correct,ExposureTime
0000,1,No Task,1,NBackSkunk(Clone),False,False,0,True,00:00:03.0068909
0000,1,No Task,2,NBackGameCoin(Clone),False,False,0,True,00:00:06.0159570
0000,1,No Task,3,NBackGameCoin(Clone),False,False,0,True,00:00:09.0243953
0000,1,No Task,4,NBackSkunk(Clone),False,False,0,True,00:00:12.0309532
0000,1,No Task,5,NBackSkunk(Clone),False,False,0,True,00:00:15.0394245
0000,1,No Task,6,NBackCow(Clone),False,False,0,True,00:00:18.0470481
0000,1,No Task,7,NBackSkunk(Clone),False,False,0,True,00:00:21.0553079
0000,1,No Task,8,NBackSkunk(Clone),False,False,0,True,00:00:24.0612164
0000,1,No Task,9,NBackGameCoin(Clone),False,False,0,True,00:00:27.0691966
0000,1,No Task,10,NBackGameCoin(Clone),False,False,0,True,00:00:30.0772875
0000,1,No Task,11,NBackGameCoin(Clone),False,False,0,True,00:00:33.0846814
0000,1,No Task,12,NBackGameCoin(Clone),False,False,0,True,00:00:36.0923944
0000,1,No Task,13,NBackCow(Clone),False,False,0,True,00:00:39.1004390
0000,1,No Task,14,NBackSkunk(Clone),False,False,0,True,00:00:42.1078126
0000,1,No Task,15,NBackCow(Clone),False,False,0,True,00:00:45.1149183
0000,1,No Task,16,NBackGameCoin(Clone),False,False,0,True,00:00:48.1218118
0000,1,No Task,17,NBackSkunk(Clone),False,False,0,True,00:00:51.1300425
0000,1,No Task,18,NBackGameCoin(Clone),False,False,0,True,00:00:54.1358584
0000,1,No Task,19,NBackGameCoin(Clone),False,False,0,True,00:00:57.1433635
0000,1,No Task,20,NBackGameCoin(Clone),False,False,0,True,00:01:00.1516011
0000,1,No Task,21,NBackGameCoin(Clone),False,False,0,True,00:01:03.1599113
0000,1,No Task,22,NBackGameCoin(Clone),False,False,0,True,00:01:06.1672739
0000,1,No Task,23,NBackCow(Clone),False,False,0,True,00:01:09.1751433
0000,1,No Task,24,NBackCow(Clone),False,False,0,True,00:01:12.1825424
0000,1,No Task,25,NBackCow(Clone),False,False,0,True,00:01:15.1887805
0000,1,No Task,26,NBackCow(Clone),False,False,0,True,00:01:18.1948113
0000,1,No Task,27,NBackCow(Clone),False,False,0,True,00:01:21.2044710
0000,1,No Task,28,NBackGameCoin(Clone),False,False,0,True,00:01:24.2120043
0000,1,No Task,29,NBackSkunk(Clone),False,False,0,True,00:01:27.2194683
0000,1,No Task,30,NBackCow(Clone),False,False,0,True,00:01:30.2274493
0000,1,No Task,31,NBackCow(Clone),False,False,0,True,00:01:33.2349461
0000,1,No Task,32,NBackSkunk(Clone),False,False,0,True,00:01:36.2422047
0000,1,No Task,33,NBackCow(Clone),False,False,0,True,00:01:39.2493482
0000,1,No Task,34,NBackSkunk(Clone),False,False,0,True,00:01:42.2548295
0000,1,No Task,35,NBackCow(Clone),False,False,0,True,00:01:45.2656154
0000,1,No Task,36,NBackGameCoin(Clone),False,False,0,True,00:01:48.2729663
0000,1,No Task,37,NBackGameCoin(Clone),False,False,0,True,00:01:51.2782060
0000,1,No Task,38,NBackSkunk(Clone),False,False,0,True,00:01:54.2862457
0000,1,No Task,39,NBackSkunk(Clone),False,False,0,True,00:01:57.2929203
0000,1,No Task,40,NBackGameCoin(Clone),False,False,0,True,00:02:00.3023366
0000,1,No Task,41,NBackSkunk(Clone),False,False,0,True,00:02:03.3106172
0000,1,No Task,42,NBackGameCoin(Clone),False,False,0,True,00:02:06.3180376
0000,1,No Task,43,NBackSkunk(Clone),False,False,0,True,00:02:09.3246849
0000,1,No Task,44,NBackGameCoin(Clone),False,False,0,True,00:02:12.3304949
0000,1,No Task,45,NBackCow(Clone),False,False,0,True,00:02:15.3382938
0000,1,No Task,46,NBackSkunk(Clone),False,False,0,True,00:02:18.3466847
0000,1,No Task,47,NBackCow(Clone),False,False,0,True,00:02:21.3532360
0000,1,No Task,48,NBackSkunk(Clone),False,False,0,True,00:02:24.3617709
0000,1,No Task,49,NBackSkunk(Clone),False,False,0,True,00:02:27.3689310
0000,1,No Task,50,NBackSkunk(Clone),False,False,0,True,00:02:30.3766852
0000,1,No Task,51,NBackSkunk(Clone),False,False,0,True,00:02:33.3850079
0000,1,No Task,52,NBackCow(Clone),False,False,0,True,00:02:36.3918038
0000,1,No Task,53,NBackSkunk(Clone),False,False,0,True,00:02:39.3995381
0000,1,No Task,54,NBackCow(Clone),False,False,0,True,00:02:52.3194825
0000,1,No Task,55,NBackCow(Clone),False,False,0,True,00:02:55.3274020
0000,1,No Task,56,NBackSkunk(Clone),False,False,0,True,00:02:58.3342964
0000,1,No Task,57,NBackGameCoin(Clone),False,False,0,True,00:03:01.3433305
0000,1,No Task,58,NBackCow(Clone),False,False,0,True,00:03:04.3499947
0000,1,No Task,59,NBackGameCoin(Clone),False,False,0,True,00:03:07.3584889
0000,1,No Task,60,NBackGameCoin(Clone),False,False,0,True,00:03:10.3651300
0000,1,No Task,61,NBackCow(Clone),False,False,0,True,00:03:13.3725900
0000,1,No Task,62,NBackCow(Clone),False,False,0,True,00:03:16.3789992
0000,1,No Task,63,NBackCow(Clone),False,False,0,True,00:03:19.3862668
0000,1,No Task,64,NBackSkunk(Clone),False,False,0,True,00:03:22.3946022
0000,1,No Task,65,NBackGameCoin(Clone),False,False,0,True,00:03:25.4033504
0000,1,No Task,66,NBackGameCoin(Clone),False,False,0,True,00:03:28.4102597
0000,1,No Task,67,NBackSkunk(Clone),False,False,0,True,00:03:31.4173062
0000,1,No Task,68,NBackSkunk(Clone),False,False,0,True,00:03:34.4260442
0000,1,No Task,69,NBackCow(Clone),False,False,0,True,00:03:37.4332032
0000,1,No Task,70,NBackGameCoin(Clone),False,False,0,True,00:03:40.4403578
0000,1,No Task,71,NBackCow(Clone),False,False,0,True,00:03:43.4475012
0000,1,No Task,72,NBackSkunk(Clone),False,False,0,True,00:03:46.4553274
0000,1,No Task,73,NBackCow(Clone),False,False,0,True,00:03:49.4626640
0000,1,No Task,74,NBackGameCoin(Clone),False,False,0,True,00:03:52.4703508
0000,1,No Task,75,NBackSkunk(Clone),False,False,0,True,00:03:55.4770017
0000,1,No Task,76,NBackCow(Clone),False,False,0,True,00:03:58.4852203
0000,1,No Task,77,NBackCow(Clone),False,False,0,True,00:04:01.4865832
0000,1,No Task,78,NBackGameCoin(Clone),False,False,0,True,00:04:04.4984190
0000,1,No Task,79,NBackCow(Clone),False,False,0,True,00:04:07.5068830
0000,1,No Task,80,NBackSkunk(Clone),False,False,0,True,00:04:10.5143692
0000,1,No Task,81,NBackSkunk(Clone),False,False,0,True,00:04:13.5232644
0000,1,No Task,82,NBackSkunk(Clone),False,False,0,True,00:04:16.5302269
0000,1,No Task,83,NBackSkunk(Clone),False,False,0,True,00:04:19.5373800
0000,1,No Task,84,NBackSkunk(Clone),False,False,0,True,00:04:22.5434129
0000,1,No Task,85,NBackSkunk(Clone),False,False,0,True,00:04:25.5531033
0000,1,No Task,86,NBackGameCoin(Clone),False,False,0,True,00:04:28.5611203
0000,1,No Task,87,NBackGameCoin(Clone),False,False,0,True,00:04:31.5663317
0000,1,No Task,88,NBackGameCoin(Clone),False,False,0,True,00:04:34.5757054
0000,1,No Task,89,NBackGameCoin(Clone),False,False,0,True,00:04:37.5837807
0000,1,No Task,90,NBackGameCoin(Clone),False,False,0,True,00:04:40.5892262
0000,1,No Task,91,NBackGameCoin(Clone),False,False,0,True,00:04:43.5957869
0000,1,No Task,92,NBackGameCoin(Clone),False,False,0,True,00:04:46.6038205
0000,1,No Task,93,NBackSkunk(Clone),False,False,0,True,00:04:49.6127112
0000,1,No Task,94,NBackCow(Clone),False,False,0,True,00:04:52.6192967
0000,1,No Task,95,NBackCow(Clone),False,False,0,True,00:04:55.6275928
0000,1,No Task,96,NBackCow(Clone),False,False,0,True,00:04:58.6358207
0000,1,No Task,97,NBackCow(Clone),False,False,0,True,00:05:01.6437788
0000,1,No Task,98,NBackGameCoin(Clone),False,False,0,True,00:05:04.6504427
0000,1,No Task,99,NBackCow(Clone),False,False,0,True,00:05:07.6580252
0000,1,No Task,100,NBackGameCoin(Clone),False,False,0,True,00:05:10.6650120
0000,1,No Task,101,NBackSkunk(Clone),False,False,0,True,00:05:13.6721019
0000,1,No Task,102,NBackGameCoin(Clone),False,False,0,True,00:05:16.6795467
0000,1,No Task,103,NBackSkunk(Clone),False,False,0,True,00:05:19.6872843
0000,1,No Task,104,NBackCow(Clone),False,False,0,True,00:05:22.6951463
0000,1,No Task,105,NBackGameCoin(Clone),False,False,0,True,00:05:25.7022475
0000,1,No Task,106,NBackCow(Clone),False,False,0,True,00:05:28.7101556
0000,1,No Task,107,NBackGameCoin(Clone),False,False,0,True,00:05:31.7180096
0000,1,No Task,108,NBackCow(Clone),False,False,0,True,00:05:34.7253436
0000,1,No Task,109,NBackGameCoin(Clone),False,False,0,True,00:05:37.7322186
0000,1,No Task,110,NBackGameCoin(Clone),False,False,0,True,00:05:40.7396438
0000,1,No Task,111,NBackCow(Clone),False,False,0,True,00:05:43.7476857
