ID,RunNumber,Condition,Trial Number,Object,ShouldClick,Clicked,Response Time,Correct,ExposureTime
1231,1,0-Back,1,NBackCow(Clone),True,False,0,False,00:00:02.8741803
1231,1,0-Back,2,NBackCow(Clone),True,True,1.7968612,True,00:00:05.8819382
1231,1,0-Back,3,NBackCow(Clone),True,True,1.1839926,True,00:00:08.8900208
1231,1,0-Back,4,NBackCow(Clone),True,True,1.1546214,True,00:00:11.8980218
1231,1,0-Back,5,NBackCow(Clone),True,True,1.2952509,True,00:00:14.9067163
1231,1,0-Back,6,NBackGameCoin(Clone),False,False,0,True,00:00:17.9136043
1231,1,0-Back,7,NBackGameCoin(Clone),False,False,0,True,00:00:20.9218815
1231,1,0-Back,8,NBackSkunk(Clone),False,False,0,True,00:00:23.9268459
1231,1,0-Back,9,NBackCow(Clone),True,True,1.8527065,True,00:00:26.9358794
1231,1,0-Back,10,NBackCow(Clone),True,True,1.1274018,True,00:00:29.9433948
1231,1,0-Back,11,NBackGameCoin(Clone),False,False,0,True,00:00:32.9517376
1231,1,0-Back,12,NBackGameCoin(Clone),False,False,0,True,00:00:35.9593060
1231,1,0-Back,13,NBackSkunk(Clone),False,False,0,True,00:00:38.9663935
1231,1,0-Back,14,NBackGameCoin(Clone),False,False,0,True,00:00:41.9738167
1231,1,0-Back,15,NBackCow(Clone),True,True,2.1576523,True,00:00:44.9824118
1231,1,0-Back,16,NBackSkunk(Clone),False,False,0,True,00:00:47.9879028
1231,1,0-Back,17,NBackCow(Clone),True,True,1.0573478,True,00:00:50.9949813
1231,1,0-Back,18,NBackCow(Clone),True,True,1.0299496,True,00:00:54.0013306
1231,1,0-Back,19,NBackCow(Clone),True,True,1.1832006,True,00:00:57.0096996
1231,1,0-Back,20,NBackCow(Clone),True,True,1.6442239,True,00:01:00.0181261
1231,1,0-Back,21,NBackCow(Clone),True,True,1.3086586,True,00:01:03.0255670
1231,1,0-Back,22,NBackGameCoin(Clone),False,True,2.4788443,False,00:01:06.0335702
1231,1,0-Back,23,NBackCow(Clone),True,True,1.2111194,True,00:01:09.0418948
1231,1,0-Back,24,NBackGameCoin(Clone),False,True,2.1015113,False,00:01:12.0485498
1231,1,0-Back,25,NBackGameCoin(Clone),False,False,0,True,00:01:15.0543100
1231,1,0-Back,26,NBackSkunk(Clone),False,False,0,True,00:01:18.0625212
1231,1,0-Back,27,NBackCow(Clone),True,False,0,False,00:01:21.0708567
1231,1,0-Back,28,NBackCow(Clone),True,False,0,False,00:01:24.0788535
1231,1,0-Back,29,NBackGameCoin(Clone),False,False,0,True,00:01:27.0854788
1231,1,0-Back,30,NBackSkunk(Clone),False,False,0,True,00:01:30.0934273
1231,1,0-Back,31,NBackGameCoin(Clone),False,False,0,True,00:01:33.1009285
1231,1,0-Back,32,NBackGameCoin(Clone),False,False,0,True,00:01:36.1084076
1231,1,0-Back,33,NBackGameCoin(Clone),False,False,0,True,00:01:39.1152060
1231,1,0-Back,34,NBackSkunk(Clone),False,False,0,True,00:01:42.1217915
1231,1,0-Back,35,NBackGameCoin(Clone),False,False,0,True,00:01:45.1317919
1231,1,0-Back,36,NBackSkunk(Clone),False,False,0,True,00:01:48.1367064
1231,1,0-Back,37,NBackGameCoin(Clone),False,False,0,True,00:01:51.1468294
1231,1,0-Back,38,NBackSkunk(Clone),False,False,0,True,00:01:54.1536517
1231,1,0-Back,39,NBackSkunk(Clone),False,False,0,True,00:01:57.1599616
1231,1,0-Back,40,NBackGameCoin(Clone),False,False,0,True,00:02:00.1692717
1231,1,0-Back,41,NBackCow(Clone),True,False,0,False,00:02:03.1761970
1231,1,0-Back,42,NBackCow(Clone),True,False,0,False,00:02:06.1846832
1231,1,0-Back,43,NBackCow(Clone),True,False,0,False,00:02:09.1895365
1231,1,0-Back,44,NBackSkunk(Clone),False,False,0,True,00:02:12.1968813
1231,1,0-Back,45,NBackCow(Clone),True,True,1.1265912,True,00:02:15.2043682
1231,1,0-Back,46,NBackSkunk(Clone),False,True,1.3780053,False,00:02:18.2128194
1231,1,0-Back,47,NBackCow(Clone),True,False,0,False,00:02:21.2198107
1231,1,0-Back,48,NBackGameCoin(Clone),False,False,0,True,00:02:24.2279594
1231,1,0-Back,49,NBackSkunk(Clone),False,False,0,True,00:02:27.2353169
1231,1,0-Back,50,NBackSkunk(Clone),False,False,0,True,00:02:30.2431382
1231,1,0-Back,51,NBackSkunk(Clone),False,False,0,True,00:02:33.2504720
1231,1,0-Back,52,NBackGameCoin(Clone),False,False,0,True,00:02:36.2584433
1231,1,0-Back,53,NBackSkunk(Clone),False,False,0,True,00:02:39.2658067
1231,1,0-Back,54,NBackGameCoin(Clone),False,False,0,True,00:02:52.1873683
1231,1,0-Back,55,NBackCow(Clone),True,False,0,False,00:02:55.1941856
1231,1,0-Back,56,NBackCow(Clone),True,False,0,False,00:02:58.2018190
1231,1,0-Back,57,NBackGameCoin(Clone),False,False,0,True,00:03:01.2093254
1231,1,0-Back,58,NBackCow(Clone),True,False,0,False,00:03:04.2173630
1231,1,0-Back,59,NBackGameCoin(Clone),False,False,0,True,00:03:07.2245250
1231,1,0-Back,60,NBackGameCoin(Clone),False,False,0,True,00:03:10.2320397
1231,1,0-Back,61,NBackCow(Clone),True,False,0,False,00:03:13.2397558
1231,1,0-Back,62,NBackGameCoin(Clone),False,False,0,True,00:03:16.2448283
1231,1,0-Back,63,NBackSkunk(Clone),False,False,0,True,00:03:19.2533999
1231,1,0-Back,64,NBackSkunk(Clone),False,False,0,True,00:03:22.2613931
1231,1,0-Back,65,NBackCow(Clone),True,False,0,False,00:03:25.2698167
1231,1,0-Back,66,NBackSkunk(Clone),False,False,0,True,00:03:28.2765305
1231,1,0-Back,67,NBackSkunk(Clone),False,False,0,True,00:03:31.2838969
1231,1,0-Back,68,NBackSkunk(Clone),False,False,0,True,00:03:34.2928711
1231,1,0-Back,69,NBackSkunk(Clone),False,False,0,True,00:03:37.2999275
1231,1,0-Back,70,NBackCow(Clone),True,False,0,False,00:03:40.3064474
1231,1,0-Back,71,NBackSkunk(Clone),False,False,0,True,00:03:43.3137769
1231,1,0-Back,72,NBackGameCoin(Clone),False,False,0,True,00:03:46.3222527
1231,1,0-Back,73,NBackCow(Clone),True,False,0,False,00:03:49.3288812
1231,1,0-Back,74,NBackCow(Clone),True,False,0,False,00:03:52.3362394
1231,1,0-Back,75,NBackGameCoin(Clone),False,False,0,True,00:03:55.3438154
1231,1,0-Back,76,NBackCow(Clone),True,False,0,False,00:03:58.3514123
1231,1,0-Back,77,NBackSkunk(Clone),False,False,0,True,00:04:01.3630711
1231,1,0-Back,78,NBackGameCoin(Clone),False,False,0,True,00:04:04.3652698
1231,1,0-Back,79,NBackCow(Clone),True,False,0,False,00:04:07.3736600
1231,1,0-Back,80,NBackSkunk(Clone),False,False,0,True,00:04:10.3810384
1231,1,0-Back,81,NBackCow(Clone),True,False,0,False,00:04:13.3887333
1231,1,0-Back,82,NBackCow(Clone),True,False,0,False,00:04:16.3959494
1231,1,0-Back,83,NBackSkunk(Clone),False,False,0,True,00:04:19.4027427
1231,1,0-Back,84,NBackCow(Clone),True,False,0,False,00:04:22.4096534
1231,1,0-Back,85,NBackCow(Clone),True,False,0,False,00:04:25.4192303
1231,1,0-Back,86,NBackSkunk(Clone),False,False,0,True,00:04:28.4267126
1231,1,0-Back,87,NBackSkunk(Clone),False,False,0,True,00:04:31.4326812
1231,1,0-Back,88,NBackCow(Clone),True,False,0,False,00:04:34.4420371
1231,1,0-Back,89,NBackSkunk(Clone),False,False,0,True,00:04:37.4497767
1231,1,0-Back,90,NBackSkunk(Clone),False,False,0,True,00:04:40.4556180
1231,1,0-Back,91,NBackGameCoin(Clone),False,False,0,True,00:04:43.4623248
1231,1,0-Back,92,NBackCow(Clone),True,False,0,False,00:04:46.4694829
1231,1,0-Back,93,NBackGameCoin(Clone),False,False,0,True,00:04:49.4788858
1231,1,0-Back,94,NBackGameCoin(Clone),False,False,0,True,00:04:52.4854258
1231,1,0-Back,95,NBackSkunk(Clone),False,False,0,True,00:04:55.4938168
1231,1,0-Back,96,NBackCow(Clone),True,False,0,False,00:04:58.5013515
1231,1,0-Back,97,NBackSkunk(Clone),False,False,0,True,00:05:01.5097600
1231,1,0-Back,98,NBackSkunk(Clone),False,False,0,True,00:05:04.5164782
1231,1,0-Back,99,NBackSkunk(Clone),False,False,0,True,00:05:07.5234621
1231,1,0-Back,100,NBackGameCoin(Clone),False,False,0,True,00:05:10.5304686
1231,1,0-Back,101,NBackSkunk(Clone),False,False,0,True,00:05:13.5388394
1231,1,0-Back,102,NBackCow(Clone),True,False,0,False,00:05:16.5453748
1231,1,0-Back,103,NBackSkunk(Clone),False,False,0,True,00:05:19.5541394
1231,1,0-Back,104,NBackGameCoin(Clone),False,False,0,True,00:05:22.5617584
1231,1,0-Back,105,NBackSkunk(Clone),False,False,0,True,00:05:25.5687366
1231,1,0-Back,106,NBackCow(Clone),True,False,0,False,00:05:28.5762832
1231,1,0-Back,107,NBackCow(Clone),True,False,0,False,00:05:31.5841935
1231,1,0-Back,108,NBackSkunk(Clone),False,False,0,True,00:05:34.5917102
1231,1,0-Back,109,NBackCow(Clone),True,False,0,False,00:05:37.5985085
1231,1,0-Back,110,NBackCow(Clone),True,False,0,False,00:05:40.6052215
1231,1,0-Back,111,NBackSkunk(Clone),False,False,0,True,00:05:43.6138918
